{"resourceType":"Bundle","id":"aupc-compositionEmpty","type":"document","entry":[{"resource":{"resourceType":"Composition","id":"aupc-compositionEmpty","status":"final","type":{"coding":[{"code":"11503-0","system":"http://loinc.org","display":"Medical Records"}]},"title":"Practice to Practice Patient Summary","text":{"status":"additional","div":"<div xmlns=\"http://www.w3.org/1999/xhtml\">No known data</div>"},"identifier":{"system":"http://clinfhir.com/fhir/namingSystem/test","value":"testingEmpty"},"author":[{"reference":"Practitioner/aupc-practitioner1"}],"subject":{"reference":"Patient/aupc-patient1"},"date":"2020-04-21","section":[{"entry":[{"reference":"List/aupc-medicalHistoryEmpty"}],"code":{"coding":[{"code":"11348-0","system":"http://loinc.org","display":"Medical History"}]},"text":{"div":"<div xmlns=\"http://www.w3.org/1999/xhtml\">No significant medical history</div>No significant medical history","status":"generated"}},{"entry":[{"reference":"List/aupc-adverseReactionEmpty"}],"code":{"coding":[{"code":"48765-2","system":"http://loinc.org","display":"Adverse Reactions"}]},"text":{"div":"<div xmlns=\"http://www.w3.org/1999/xhtml\">Allergies</div>Allergies","status":"generated"}},{"entry":[{"reference":"List/aupc-immunizationEmpty"}],"code":{"coding":[{"code":"41291-6","system":"http://loinc.org","display":"Immunization"}]},"text":{"div":"<div xmlns=\"http://www.w3.org/1999/xhtml\">No known immunizations</div>No known immunizations","status":"generated"}},{"entry":[{"reference":"List/aupc-medicineListEmpty"}],"code":{"coding":[{"code":"10160-0","system":"http://loinc.org","display":"Medication List"}]},"text":{"div":"<div xmlns=\"http://www.w3.org/1999/xhtml\">No known medications</div>No known medications","status":"generated"}}]},"fullUrl":"http://clinfhir.com/fhir/Composition/aupc-compositionEmpty"},{"resource":{"resourceType":"Patient","id":"aupc-patient1","extension":[{"url":"http://hl7.org/fhir/StructureDefinition/patient-interpreterRequired","valueBoolean":true}],"text":{"status":"additional","div":"<div xmlns=\"http://www.w3.org/1999/xhtml\">French speaking patient. Needs interpreter</div>"},"communication":[{"language":{"text":"French"},"preferred":true}],"name":[{"family":"Doe","given":["Jenny"],"text":"Jenny Doe"}],"birthDate":"1989-01-02","gender":"female","address":[{"text":"23 Thule st"}],"telecom":[{"system":"email","value":"jenny@myemailserver.com"}],"generalPractitioner":[{"reference":"Practitioner/aupc-practitioner1"}]},"fullUrl":"http://clinfhir.com/fhir/Patient/aupc-patient1"},{"resource":{"resourceType":"Practitioner","id":"aupc-practitioner1","text":{"status":"additional","div":"<div xmlns=\"http://www.w3.org/1999/xhtml\">Dr Marcus Welby</div>"},"name":[{"text":"Marcus Welby"}]},"fullUrl":"http://clinfhir.com/fhir/Practitioner/aupc-practitioner1"},{"resource":{"resourceType":"List","id":"aupc-medicalHistoryEmpty","status":"current","mode":"snapshot","text":{"status":"additional","div":"<div xmlns=\"http://www.w3.org/1999/xhtml\">No significant medical history known</div>"},"emptyReason":{"coding":[{"code":"nilknown","system":"http://terminology.hl7.org/CodeSystem/list-empty-reason","display":"Nil Known"}]}},"fullUrl":"http://clinfhir.com/fhir/List/aupc-medicalHistoryEmpty"},{"resource":{"resourceType":"List","id":"aupc-adverseReactionEmpty","status":"current","mode":"snapshot","text":{"status":"additional","div":"<div xmlns=\"http://www.w3.org/1999/xhtml\">No allergies or adverse reactions known</div>"},"emptyReason":{"coding":[{"code":"nilknown","system":"http://terminology.hl7.org/CodeSystem/list-empty-reason","display":"Nil Known"}]}},"fullUrl":"http://clinfhir.com/fhir/List/aupc-adverseReactionEmpty"},{"resource":{"resourceType":"List","id":"aupc-immunizationEmpty","status":"current","mode":"snapshot","text":{"status":"additional","div":"<div xmlns=\"http://www.w3.org/1999/xhtml\">No Immunizations known</div>"},"emptyReason":{"coding":[{"code":"nilknown","system":"http://terminology.hl7.org/CodeSystem/list-empty-reason","display":"Nil Known"}]}},"fullUrl":"http://clinfhir.com/fhir/List/aupc-immunizationEmpty"},{"resource":{"resourceType":"List","id":"aupc-medicineListEmpty","status":"current","mode":"snapshot","text":{"status":"additional","div":"<div xmlns=\"http://www.w3.org/1999/xhtml\">No Medications known</div>"},"emptyReason":{"coding":[{"code":"nilknown","system":"http://terminology.hl7.org/CodeSystem/list-empty-reason","display":"Nil Known"}]}},"fullUrl":"http://clinfhir.com/fhir/List/aupc-medicineListEmpty"}],"identifier":{"system":"http://clinfhir.com/fhir/namingSystem/test","value":"testingEmpty"},"timestamp":"2020-06-10T23:23:23.405Z"}