{"resourceType":"Bundle","id":"aupc-compositionAllergy","type":"document","entry":[{"resource":{"resourceType":"Composition","id":"aupc-compositionAllergy","meta":{"profile":["https://aehrc.com/fhir/StructureDefinition/AUPrimaryCareComposition"]},"status":"final","type":{"coding":[{"code":"11503-0","system":"http://loinc.org","display":"Medical Records"}]},"title":"Practice to Practice Patient Summary","text":{"status":"generated","div":"<div xmlns=\"http://www.w3.org/1999/xhtml\">Patient with Alllergy list only</div>"},"author":[{"reference":"Practitioner/aupc-practitioner1","display":"Marcus Welby"}],"subject":{"reference":"Patient/aupc-patient1","display":"John Doe"},"date":"2020-04-21","section":[{"entry":[{"reference":"List/aupc-medicalHistoryEmpty"}],"code":{"coding":[{"code":"11348-0","system":"http://loinc.org","display":"Medical History"}]},"text":{"div":"<div xmlns=\"http://www.w3.org/1999/xhtml\">No significant medical history</div>","status":"generated"}},{"entry":[{"reference":"List/aupc-adverseReactionList"}],"code":{"coding":[{"code":"48765-2","system":"http://loinc.org","display":"Adverse Reactions"}]},"text":{"div":"<div xmlns=\"http://www.w3.org/1999/xhtml\">No significant medical history</div>","status":"generated"}},{"entry":[{"reference":"List/aupc-immunizationEmpty"}],"code":{"coding":[{"code":"41291-6","system":"http://loinc.org","display":"Immunizations"}]},"text":{"div":"<div xmlns=\"http://www.w3.org/1999/xhtml\">No significant medical history</div>","status":"generated"}},{"entry":[{"reference":"List/aupc-medicineListEmpty"}],"code":{"coding":[{"code":"10160-0","system":"http://loinc.org","display":"Medication List"}]},"text":{"div":"<div xmlns=\"http://www.w3.org/1999/xhtml\">No significant medical history</div>","status":"generated"}}]},"fullUrl":"http://clinfhir.com/fhir/Composition/aupc-compositionAllergy"},{"resource":{"resourceType":"Patient","id":"aupc-patient1","name":[{"text":"John Doe"}]},"fullUrl":"http://clinfhir.com/fhir/Patient/aupc-patient1"},{"resource":{"resourceType":"Practitioner","id":"aupc-practitioner1","name":[{"text":"Marcus Welby"}]},"fullUrl":"http://clinfhir.com/fhir/Practitioner/aupc-practitioner1"},{"resource":{"resourceType":"List","id":"aupc-medicalHistoryEmpty","meta":{"profile":["https://aehrc.com/fhir/StructureDefinition/AUPrimaryCareMedicalHistoryList"]},"status":"current","mode":"snapshot","emptyReason":{"coding":[{"code":"nilknown","system":"http://terminology.hl7.org/CodeSystem/list-empty-reason","display":"Nil Known"}]}},"fullUrl":"http://clinfhir.com/fhir/List/aupc-medicalHistoryEmpty"},{"resource":{"resourceType":"List","id":"aupc-adverseReactionList","meta":{"profile":["https://aehrc.com/fhir/StructureDefinition/AUPrimaryCareAllergyIntoleranceList"]},"status":"current","mode":"snapshot","subject":{"reference":"Patient/aupc-patient1"},"entry":[{"item":{"reference":"AllergyIntolerance/aupc-allergy1"}},{"item":{"reference":"AllergyIntolerance/aupc-allergy2"}},{"item":{"reference":"AllergyIntolerance/aupc-allergy3"}},{"item":{"reference":"AllergyIntolerance/aupc-allergy4"}}]},"fullUrl":"http://clinfhir.com/fhir/List/aupc-adverseReactionList"},{"resource":{"resourceType":"AllergyIntolerance","id":"aupc-allergy1","meta":{"profile":["https://aehrc.com/fhir/StructureDefinition/AUPrimaryCareAllergyIntolerance"]},"text":{"status":"generated","div":"<div xmlns=\"http://www.w3.org/1999/xhtml\">Oesophagitis</div>"},"clinicalStatus":{"coding":[{"code":"active","system":"http://terminology.hl7.org/CodeSystem/allergyintolerance-clinical","display":"Active"}],"text":"active"},"verificationStatus":{"coding":[{"code":"confirmed","system":"http://terminology.hl7.org/CodeSystem/allergyintolerance-verification","display":"Confirmed"}],"text":"confirmed"},"type":"intolerance","category":["food"],"criticality":"low","code":{"coding":[{"code":"735455001","system":"http://snomed.info/sct","display":"Eosinophilic esophagitis caused by food"}]},"patient":{"reference":"Patient/aupc-patient1"},"recordedDate":"2019-04-09T14:00:00.000Z","reaction":[{"substance":{"coding":[{"code":"412071004","system":"http://snomed.info/sct","display":"Wheat"}]},"manifestation":[{"coding":[{"code":"235599003","system":"http://snomed.info/sct","display":"Eosinophilic esophagitis"}]}]},{"substance":{"coding":[{"code":"226760005","system":"http://snomed.info/sct","display":"Dairy foods"}]},"manifestation":[{"coding":[{"code":"235599003","system":"http://snomed.info/sct","display":"Eosinophilic esophagitis"}]}]}]},"fullUrl":"http://clinfhir.com/fhir/AllergyIntolerance/aupc-allergy1"},{"resource":{"resourceType":"AllergyIntolerance","id":"aupc-allergy2","meta":{"profile":["https://aehrc.com/fhir/StructureDefinition/AUPrimaryCareAllergyIntolerance"]},"text":{"div":"<div xmlns=\"http://www.w3.org/1999/xhtml\">Peanut allergy</div>","status":"generated"},"clinicalStatus":{"coding":[{"code":"active","system":"http://terminology.hl7.org/CodeSystem/allergyintolerance-clinical","display":"Active"}],"text":"active"},"verificationStatus":{"coding":[{"code":"unconfirmed","system":"http://terminology.hl7.org/CodeSystem/allergyintolerance-verification","display":"Unconfirmed"}],"text":"unconfirmed"},"type":"allergy","category":["food"],"criticality":"unable-to-assess","code":{"coding":[{"code":"91935009","system":"http://snomed.info/sct","display":"Allergy to peanuts"}]},"patient":{"reference":"Patient/aupc-patient1"},"recordedDate":"2019-04-09T14:00:00.000Z","asserter":{"reference":"Patient/aupc-patient1"},"reaction":[{"substance":{"coding":[{"code":"762952008","system":"http://snomed.info/sct","display":"Peanut"}]},"manifestation":[{"coding":[{"code":"126485001","system":"http://snomed.info/sct","display":"Urticaria"}]}]}]},"fullUrl":"http://clinfhir.com/fhir/AllergyIntolerance/aupc-allergy2"},{"resource":{"resourceType":"AllergyIntolerance","id":"aupc-allergy3","meta":{"profile":["https://aehrc.com/fhir/StructureDefinition/AUPrimaryCareAllergyIntolerance"]},"text":{"div":"<div xmlns=\"http://www.w3.org/1999/xhtml\">Penicillin anaphylaxis</div>","status":"generated"},"clinicalStatus":{"coding":[{"code":"active","system":"http://terminology.hl7.org/CodeSystem/allergyintolerance-clinical","display":"Active"}],"text":"active"},"verificationStatus":{"coding":[{"code":"confirmed","system":"http://terminology.hl7.org/CodeSystem/allergyintolerance-verification","display":"Confirmed"}],"text":"confirmed"},"category":["medication"],"criticality":"high","code":{"coding":[{"code":"2","system":"http://oridashi.com.au/code/bp-drug-class","display":"Penicillin"}],"text":"Penicillin"},"patient":{"reference":"Patient/aupc-patient1"},"recordedDate":"2006-02-23","recorder":{"reference":"Practitioner/aupc-practitioner1"},"reaction":[{"substance":{"coding":[{"code":"764146007","system":"http://snomed.info/sct","display":"Penicillin"}]},"manifestation":[{"coding":[{"code":"1","system":"http://oridashi.com.au/system/code/bestpracticereaction","display":"Anaphylaxis"},{"code":"39579001","system":"http://snomed.info/sct","display":"Anaphylaxis"}],"text":"Anaphylaxis"}],"severity":"severe"}]},"fullUrl":"http://clinfhir.com/fhir/AllergyIntolerance/aupc-allergy3"},{"resource":{"resourceType":"AllergyIntolerance","id":"aupc-allergy4","meta":{"profile":["https://aehrc.com/fhir/StructureDefinition/AUPrimaryCareAllergyIntolerance"]},"text":{"div":"<div xmlns=\"http://www.w3.org/1999/xhtml\">Rash to alpha blockers</div>","status":"generated"},"clinicalStatus":{"coding":[{"code":"active","system":"http://terminology.hl7.org/CodeSystem/allergyintolerance-clinical","display":"Active"}],"text":"active"},"verificationStatus":{"coding":[{"code":"confirmed","system":"http://terminology.hl7.org/CodeSystem/allergyintolerance-verification","display":"Confirmed"}],"text":"confirmed"},"category":["medication"],"criticality":"low","code":{"coding":[{"code":"1AA89EE6CE4C79150C522899B2721609","system":"http://oridashi.com.au/system/code/md-drug-class","display":"ALPHA-ADRENERGIC BLOCKERS"}],"text":"ALPHA-ADRENERGIC BLOCKERS"},"patient":{"reference":"Patient/aupc-patient1"},"recordedDate":"2018-04-12","recorder":{"reference":"Practitioner/aupc-practitioner1"},"reaction":[{"substance":{"coding":[{"code":"372623002","system":"http://snomed.info/sct","display":"Substance with central alpha adrenergic receptor agonist mechanism of action (substance)"}]},"manifestation":[{"text":"rash"}],"severity":"moderate"}]},"fullUrl":"http://clinfhir.com/fhir/AllergyIntolerance/aupc-allergy4"},{"resource":{"resourceType":"List","id":"aupc-immunizationEmpty","meta":{"profile":["https://aehrc.com/fhir/StructureDefinition/AUPrimaryCareImmunisationList"]},"status":"current","mode":"snapshot","emptyReason":{"coding":[{"code":"nilknown","system":"http://terminology.hl7.org/CodeSystem/list-empty-reason","display":"Nil Known"}]}},"fullUrl":"http://clinfhir.com/fhir/List/aupc-immunizationEmpty"},{"resource":{"resourceType":"List","id":"aupc-medicineListEmpty","meta":{"profile":["https://aehrc.com/fhir/StructureDefinition/AUPrimaryCareMedicineList"]},"status":"current","mode":"snapshot","emptyReason":{"coding":[{"code":"nilknown","system":"http://terminology.hl7.org/CodeSystem/list-empty-reason","display":"Nil Known"}]}},"fullUrl":"http://clinfhir.com/fhir/List/aupc-medicineListEmpty"}]}