{"resourceType":"Bundle","id":"aupc-compositionComplete","type":"document","entry":[{"resource":{"resourceType":"Composition","id":"aupc-compositionComplete","status":"final","type":{"coding":[{"code":"11503-0","system":"http://loinc.org","display":"Medical Records"}]},"title":"Practice to Practice Patient Summary","text":{"status":"additional","div":"<div xmlns=\"http://www.w3.org/1999/xhtml\">A complete example of an extract</div>"},"identifier":{"system":"http://clinfhir.com/fhir/namingSystem/test","value":"testing"},"author":[{"reference":"Practitioner/aupc-practitioner1","display":"Marcus Welby"}],"subject":{"reference":"Patient/aupc-patient1","display":"John Doe"},"date":"2020-04-21","section":[{"entry":[{"reference":"List/aupc-medicalHistoryList"}],"code":{"coding":[{"code":"11348-0","system":"http://loinc.org","display":"Medical History"}]},"text":{"div":"<div xmlns=\"http://www.w3.org/1999/xhtml\">Polio and asthma</div>Polio and asthma<li>Polio</li><li>Ashma</li><li>Stent, coronary artery</li><li>Plantar wart excision</li>","status":"generated"}},{"entry":[{"reference":"List/aupc-adverseReactionList"}],"code":{"coding":[{"code":"48765-2","system":"http://loinc.org","display":"Adverse Reactions"}]},"text":{"div":"<div xmlns=\"http://www.w3.org/1999/xhtml\">Peanuts and others</div>Peanuts and others<li>Oesophagitis</li><li>Peanut allergy</li><li>Penicillin anaphylaxis</li><li>Rash to alpha blockers</li>","status":"generated"}},{"entry":[{"reference":"List/aupc-immunizationList"}],"code":{"coding":[{"code":"41291-6","system":"http://loinc.org","display":"Immunization"}]},"text":{"div":"<div xmlns=\"http://www.w3.org/1999/xhtml\">Immunizations</div>Immunizations<li>MMR</li><li>MMR</li><li>Hepatitis</li>","status":"generated"}},{"entry":[{"reference":"List/aupc-medicineList"}],"code":{"coding":[{"code":"10160-0","system":"http://loinc.org","display":"Medicine list"}]},"text":{"div":"<div xmlns=\"http://www.w3.org/1999/xhtml\">Medications</div>Medications<li>Simvastatin 10mg daily</li>","status":"generated"}},{"entry":[{"reference":"List/aupc-familyHistoryList"}],"code":{"coding":[{"code":"10157-6","system":"http://loinc.org","display":"Family history list"}]},"text":{"div":"<div xmlns=\"http://www.w3.org/1999/xhtml\">Father with diabetes</div>Father with diabetes<li>Father with diabetes</li>","status":"generated"}},{"code":{"coding":[{"code":"10163-4","system":"http://loinc.org","display":"History of pregnancies"}]},"text":{"div":"<div xmlns=\"http://www.w3.org/1999/xhtml\">History of pregnancies</div>History of pregnancies","status":"generated"},"entry":[{"reference":"Observation/aupc-gravidity1"},{"reference":"Observation/aupc-parity1"},{"reference":"Observation/aupc-gestationOnScan1"},{"reference":"Observation/aupc-edd1"},{"reference":"Observation/aupc-lmp1"}]},{"code":{"coding":[{"code":"29762-2","system":"http://loinc.org","display":"Social History Narrative"}]},"text":{"div":"<div xmlns=\"http://www.w3.org/1999/xhtml\">Social History</div>Social History<li>Cigarette smoker</li>","status":"generated"},"entry":[{"reference":"List/aupc-socialHistoryList"}]},{"code":{"coding":[{"code":"69730-02","system":"http://loinc.org","display":"Follow ups"}]},"text":{"div":"<div xmlns=\"http://www.w3.org/1999/xhtml\">Follow ups</div>Follow ups","status":"generated"},"entry":[{"reference":"List/aupc-followUpList"}]}]},"fullUrl":"http://clinfhir.com/fhir/Composition/aupc-compositionComplete"},{"resource":{"resourceType":"Patient","id":"aupc-patient1","extension":[{"url":"http://hl7.org/fhir/StructureDefinition/patient-interpreterRequired","valueBoolean":true}],"text":{"status":"additional","div":"<div xmlns=\"http://www.w3.org/1999/xhtml\">French speaking patient. Needs interpreter</div>"},"communication":[{"language":{"text":"French"},"preferred":true}],"name":[{"family":"Doe","given":["Jenny"],"text":"Jenny Doe"}],"birthDate":"1989-01-02","gender":"female","address":[{"text":"23 Thule st"}],"telecom":[{"system":"email","value":"jenny@myemailserver.com"}],"generalPractitioner":[{"reference":"Practitioner/aupc-practitioner1"}]},"fullUrl":"http://clinfhir.com/fhir/Patient/aupc-patient1"},{"resource":{"resourceType":"Practitioner","id":"aupc-practitioner1","text":{"status":"additional","div":"<div xmlns=\"http://www.w3.org/1999/xhtml\">Dr Marcus Welby</div>"},"name":[{"text":"Marcus Welby"}]},"fullUrl":"http://clinfhir.com/fhir/Practitioner/aupc-practitioner1"},{"resource":{"resourceType":"List","id":"aupc-medicalHistoryList","status":"current","mode":"snapshot","text":{"status":"additional","div":"<div xmlns=\"http://www.w3.org/1999/xhtml\">Polio, asthma, warts and a stent</div>"},"subject":{"reference":"Patient/aupc-patient1"},"entry":[{"item":{"reference":"Condition/aupc-condition1"}},{"item":{"reference":"Condition/aupc-condition2"}},{"item":{"reference":"Procedure/aupc-procedure1"}},{"item":{"reference":"Procedure/aupc-procedure2"}}]},"fullUrl":"http://clinfhir.com/fhir/List/aupc-medicalHistoryList"},{"resource":{"resourceType":"Condition","id":"aupc-condition1","code":{"coding":[{"system":"http://snomed.info/sct","code":"398102009"}]},"text":{"status":"additional","div":"<div xmlns=\"http://www.w3.org/1999/xhtml\">Polio</div>"},"clinicalStatus":{"coding":[{"system":"http://terminology.hl7.org/CodeSystem/condition-clinical","code":"active"}]},"verificationStatus":{"coding":[{"system":"http://terminology.hl7.org/CodeSystem/condition-ver-status","code":"confirmed"}]},"category":[{"coding":[{"system":"http://snomed.info/sct","code":"439401001"}]}],"onsetDateTime":"1913-03-05","asserter":{"reference":"Practitioner/aupc-practitioner1"},"subject":{"reference":"Patient/aupc-patient1"}},"fullUrl":"http://clinfhir.com/fhir/Condition/aupc-condition1"},{"resource":{"resourceType":"Condition","id":"aupc-condition2","text":{"status":"additional","div":"<div xmlns=\"http://www.w3.org/1999/xhtml\">Ashma</div>"},"clinicalStatus":{"coding":[{"system":"http://terminology.hl7.org/CodeSystem/condition-clinical","code":"active"}]},"verificationStatus":{"coding":[{"system":"http://terminology.hl7.org/CodeSystem/condition-ver-status","code":"confirmed"}]},"category":[{"coding":[{"system":"http://snomed.info/sct","code":"439401001"}]}],"code":{"coding":[{"code":"138875005","system":"http://snomed.info/sct","display":"Asthma"}]},"onsetDateTime":"1989-03-05","asserter":{"reference":"Patient/aupc-patient1"},"subject":{"reference":"Patient/aupc-patient1"}},"fullUrl":"http://clinfhir.com/fhir/Condition/aupc-condition2"},{"resource":{"resourceType":"Procedure","id":"aupc-procedure1","text":{"status":"additional","div":"<div xmlns=\"http://www.w3.org/1999/xhtml\">Stent, coronary artery</div>"},"status":"completed","subject":{"reference":"Patient/aupc-patient1"},"code":{"coding":[{"code":"36969009","system":"http://snomed.info/sct","display":"Placement of stent in coronary artery"},{"code":"3579","system":"http://oridashi.com.au/system/code/bestpracticeterm","display":"Stent, coronary artery"}]},"performedPeriod":{"start":"2017-12-28"}},"fullUrl":"http://clinfhir.com/fhir/Procedure/aupc-procedure1"},{"resource":{"resourceType":"Procedure","id":"aupc-procedure2","text":{"status":"additional","div":"<div xmlns=\"http://www.w3.org/1999/xhtml\">Plantar wart excision</div>"},"status":"completed","subject":{"reference":"Patient/aupc-patient1"},"code":{"coding":[{"code":"surg.foot@planw","system":"http://oridashi.com.au/system/code/medicaldirectorterm","display":"Plantar wart excision"}]},"performedPeriod":{"start":"2017-12-28"}},"fullUrl":"http://clinfhir.com/fhir/Procedure/aupc-procedure2"},{"resource":{"resourceType":"List","id":"aupc-adverseReactionList","status":"current","mode":"snapshot","text":{"status":"additional","div":"<div xmlns=\"http://www.w3.org/1999/xhtml\">No allerrgies or intolerances known</div>"},"subject":{"reference":"Patient/aupc-patient1"},"entry":[{"item":{"reference":"AllergyIntolerance/aupc-allergy1"}},{"item":{"reference":"AllergyIntolerance/aupc-allergy2"}},{"item":{"reference":"AllergyIntolerance/aupc-allergy3"}},{"item":{"reference":"AllergyIntolerance/aupc-allergy4"}}]},"fullUrl":"http://clinfhir.com/fhir/List/aupc-adverseReactionList"},{"resource":{"resourceType":"AllergyIntolerance","id":"aupc-allergy1","text":{"status":"additional","div":"<div xmlns=\"http://www.w3.org/1999/xhtml\">Oesophagitis</div>"},"clinicalStatus":{"coding":[{"code":"active","system":"http://terminology.hl7.org/CodeSystem/allergyintolerance-clinical","display":"Active"}],"text":"active"},"verificationStatus":{"coding":[{"code":"confirmed","system":"http://terminology.hl7.org/CodeSystem/allergyintolerance-verification","display":"Confirmed"}],"text":"confirmed"},"type":"intolerance","category":["food"],"criticality":"low","code":{"coding":[{"code":"735455001","system":"http://snomed.info/sct","display":"Eosinophilic esophagitis caused by food"}]},"patient":{"reference":"Patient/aupc-patient1"},"recordedDate":"2019-04-09T14:00:00.000Z","reaction":[{"substance":{"coding":[{"code":"412071004","system":"http://snomed.info/sct","display":"Wheat"}]},"manifestation":[{"coding":[{"code":"235599003","system":"http://snomed.info/sct","display":"Eosinophilic esophagitis"}]}]},{"substance":{"coding":[{"code":"226760005","system":"http://snomed.info/sct","display":"Dairy foods"}]},"manifestation":[{"coding":[{"code":"235599003","system":"http://snomed.info/sct","display":"Eosinophilic esophagitis"}]}]}]},"fullUrl":"http://clinfhir.com/fhir/AllergyIntolerance/aupc-allergy1"},{"resource":{"resourceType":"AllergyIntolerance","id":"aupc-allergy2","text":{"div":"<div xmlns=\"http://www.w3.org/1999/xhtml\">Peanut allergy</div>","status":"additional"},"clinicalStatus":{"coding":[{"code":"active","system":"http://terminology.hl7.org/CodeSystem/allergyintolerance-clinical","display":"Active"}],"text":"active"},"verificationStatus":{"coding":[{"code":"unconfirmed","system":"http://terminology.hl7.org/CodeSystem/allergyintolerance-verification","display":"Unconfirmed"}],"text":"unconfirmed"},"type":"allergy","category":["food"],"criticality":"unable-to-assess","code":{"coding":[{"code":"91935009","system":"http://snomed.info/sct","display":"Allergy to peanuts"}]},"patient":{"reference":"Patient/aupc-patient1"},"recordedDate":"2019-04-09T14:00:00.000Z","asserter":{"reference":"Patient/aupc-patient1"},"reaction":[{"substance":{"coding":[{"code":"762952008","system":"http://snomed.info/sct","display":"Peanut"}]},"manifestation":[{"coding":[{"code":"126485001","system":"http://snomed.info/sct","display":"Urticaria"}]}]}]},"fullUrl":"http://clinfhir.com/fhir/AllergyIntolerance/aupc-allergy2"},{"resource":{"resourceType":"AllergyIntolerance","id":"aupc-allergy3","text":{"div":"<div xmlns=\"http://www.w3.org/1999/xhtml\">Penicillin anaphylaxis</div>","status":"additional"},"clinicalStatus":{"coding":[{"code":"active","system":"http://terminology.hl7.org/CodeSystem/allergyintolerance-clinical","display":"Active"}],"text":"active"},"verificationStatus":{"coding":[{"code":"confirmed","system":"http://terminology.hl7.org/CodeSystem/allergyintolerance-verification","display":"Confirmed"}],"text":"confirmed"},"category":["medication"],"criticality":"high","code":{"coding":[{"code":"2","system":"http://oridashi.com.au/code/bp-drug-class","display":"Penicillin"}],"text":"Penicillin"},"patient":{"reference":"Patient/aupc-patient1"},"recordedDate":"2006-02-23","recorder":{"reference":"Practitioner/aupc-practitioner1"},"reaction":[{"substance":{"coding":[{"code":"764146007","system":"http://snomed.info/sct","display":"Penicillin"}]},"manifestation":[{"coding":[{"code":"1","system":"http://oridashi.com.au/system/code/bestpracticereaction","display":"Anaphylaxis"},{"code":"39579001","system":"http://snomed.info/sct","display":"Anaphylaxis"}],"text":"Anaphylaxis"}],"severity":"severe"}]},"fullUrl":"http://clinfhir.com/fhir/AllergyIntolerance/aupc-allergy3"},{"resource":{"resourceType":"AllergyIntolerance","id":"aupc-allergy4","text":{"div":"<div xmlns=\"http://www.w3.org/1999/xhtml\">Rash to alpha blockers</div>","status":"additional"},"clinicalStatus":{"coding":[{"code":"active","system":"http://terminology.hl7.org/CodeSystem/allergyintolerance-clinical","display":"Active"}],"text":"active"},"verificationStatus":{"coding":[{"code":"confirmed","system":"http://terminology.hl7.org/CodeSystem/allergyintolerance-verification","display":"Confirmed"}],"text":"confirmed"},"category":["medication"],"criticality":"low","code":{"coding":[{"code":"1AA89EE6CE4C79150C522899B2721609","system":"http://oridashi.com.au/system/code/md-drug-class","display":"ALPHA-ADRENERGIC BLOCKERS"}],"text":"ALPHA-ADRENERGIC BLOCKERS"},"patient":{"reference":"Patient/aupc-patient1"},"recordedDate":"2018-04-12","recorder":{"reference":"Practitioner/aupc-practitioner1"},"reaction":[{"substance":{"coding":[{"code":"372623002","system":"http://snomed.info/sct","display":"Substance with central alpha adrenergic receptor agonist mechanism of action (substance)"}]},"manifestation":[{"text":"rash"}],"severity":"moderate"}]},"fullUrl":"http://clinfhir.com/fhir/AllergyIntolerance/aupc-allergy4"},{"resource":{"resourceType":"List","id":"aupc-immunizationList","status":"current","mode":"snapshot","text":{"status":"additional","div":"<div xmlns=\"http://www.w3.org/1999/xhtml\">3 allergies</div>"},"subject":{"reference":"Patient/aupc-patient1"},"entry":[{"item":{"reference":"Immunization/aupc-immunization1"}},{"item":{"reference":"Immunization/aupc-immunization2"}},{"item":{"reference":"Immunization/aupc-immunization3"}}]},"fullUrl":"http://clinfhir.com/fhir/List/aupc-immunizationList"},{"resource":{"resourceType":"Immunization","id":"aupc-immunization1","text":{"status":"additional","div":"<div xmlns=\"http://www.w3.org/1999/xhtml\">MMR</div>"},"status":"completed","vaccineCode":{"coding":[{"code":"396429000","system":"http://snomed.info/sct","display":"MMR vaccine"}]},"occurrenceDateTime":"2020-01-01","patient":{"reference":"Patient/aupc-patient1"}},"fullUrl":"http://clinfhir.com/fhir/Immunization/aupc-immunization1"},{"resource":{"resourceType":"Immunization","id":"aupc-immunization2","text":{"status":"additional","div":"<div xmlns=\"http://www.w3.org/1999/xhtml\">MMR</div>"},"status":"completed","vaccineCode":{"coding":[{"code":"396429000","system":"http://snomed.info/sct","display":"MMR vaccine"}]},"occurrenceDateTime":"2020-02-10","patient":{"reference":"Patient/aupc-patient1"}},"fullUrl":"http://clinfhir.com/fhir/Immunization/aupc-immunization2"},{"resource":{"resourceType":"Immunization","id":"aupc-immunization3","performer":[{"function":{"coding":[{"code":"AP","system":"http://terminology.hl7.org/CodeSystem/v2-0443","display":"Administering Provider"}],"text":"Administering Provider"},"actor":{"reference":"Practitioner/aupc-practitioner1"}}],"text":{"status":"additional","div":"<div xmlns=\"http://www.w3.org/1999/xhtml\">Hepatitis</div>"},"status":"completed","primarySource":true,"lotNumber":"EE3F243E","vaccineCode":{"coding":[{"code":"396429000","system":"http://snomed.info/sct","display":"MMR vaccine"}]},"occurrenceDateTime":"2020-02-10","patient":{"reference":"Patient/aupc-patient1"},"note":[{"text":"Off to China for 3 weeks."}]},"fullUrl":"http://clinfhir.com/fhir/Immunization/aupc-immunization3"},{"resource":{"resourceType":"List","id":"aupc-medicineList","status":"current","mode":"snapshot","subject":{"reference":"Patient/aupc-patient1"},"text":{"status":"additional","div":"<div xmlns=\"http://www.w3.org/1999/xhtml\">No significant medical history</div>"},"entry":[{"item":{"reference":"MedicationStatement/aupc-medicationstatement1"}}]},"fullUrl":"http://clinfhir.com/fhir/List/aupc-medicineList"},{"resource":{"resourceType":"MedicationStatement","id":"aupc-medicationstatement1","text":{"status":"generated","div":"<div xmlns=\"http://www.w3.org/1999/xhtml\">Simvastatin 10mg daily</div>"},"status":"active","contained":[{"resourceType":"Medication","id":"medication1","meta":{"profile":["https://aehrc.com/fhir/StructureDefinition/AUPrimaryCareMedication"]},"text":{"status":"additional","div":"<div xmlns=\"http://www.w3.org/1999/xhtml\">Simvastatin</div>"},"code":{"coding":[{"code":"22138","system":"http://oridashi.com.au/system/code/medicaldirectordrug","display":"SIMVASTATIN 10mg Tablet"},{"code":"28211011000036108","system":"http://snomed.info/sct","display":"simvastatin 10 mg tablet, 30","extension":[{"url":"http://hl7.org.au/fhir/StructureDefinition/medication-type","valueCoding":{"code":"UPG","system":"http://hl7.org.au/fhir/CodeSystem/medication-type","display":"Unbranded package with no container"}}]},{"code":"2011W","system":"http://pbs.gov.au/code/item","display":"Simvastatin"},{"code":"HMG","system":"http://oridashi.com.au/system/code/medicaldirectorgeneric","display":"Simvastatin"},{"code":"C10AA01","system":"http://www.whocc.no/atc","display":"Simvastatin"}],"text":"SIMVASTATIN 10mg Tablet"},"form":{"text":"Tablet"}}],"effectivePeriod":{"start":"2018-11-12"},"dateAsserted":"2018-11-12","informationSource":{"reference":"Practitioner/aupc-practitioner1"},"reasonCode":[{"coding":[{"code":"hypet","system":"http://oridashi.com.au/system/code/medicaldirectorterm","display":"Hypertension"}],"text":"Hypertension"}],"dosage":[{"text":"1 daily m.d.u. (30) 5 repeats","asNeededBoolean":true,"route":{"coding":[{"code":"PO","system":"http://oridashi.com.au/system/code/medicaldirectormedicationroute","display":"Oral - Swallowed"}]}}],"medicationReference":{"reference":"#medication1"},"subject":{"reference":"Patient/aupc-patient1"}},"fullUrl":"http://clinfhir.com/fhir/MedicationStatement/aupc-medicationstatement1"},{"resource":{"resourceType":"List","id":"aupc-familyHistoryList","status":"current","mode":"snapshot","text":{"status":"additional","div":"<div xmlns=\"http://www.w3.org/1999/xhtml\">Father with diabetes</div>"},"subject":{"reference":"Patient/aupc-patient1"},"entry":[{"item":{"reference":"FamilyMemberHistory/aupc-familyHistory1"}}]},"fullUrl":"http://clinfhir.com/fhir/List/aupc-familyHistoryList"},{"resource":{"resourceType":"FamilyMemberHistory","id":"aupc-familyHistory1","text":{"status":"additional","div":"<div xmlns=\"http://www.w3.org/1999/xhtml\">Father with diabetes</div>"},"status":"completed","patient":{"reference":"Patient/aupc-patient1"},"name":"Tom Daniel Smith","relationship":{"coding":[{"code":"444295003","system":"http://snomed.info/sct","display":"Father of Subject"}]},"bornDate":"1956","condition":[{"code":{"coding":[{"code":"73211009","system":"http://snomed.info/sct","display":"Diabetes mellitus (disorder)"}]},"contributedToDeath":true}]},"fullUrl":"http://clinfhir.com/fhir/FamilyMemberHistory/aupc-familyHistory1"},{"resource":{"resourceType":"Observation","id":"aupc-gravidity1","status":"final","code":{"coding":[{"system":"http://snomed.info/sct","code":"161732006","display":"Gravidity"}]},"text":{"status":"generated","div":"<div xmlns=\"http://www.w3.org/1999/xhtml\">Gravidity</div>"},"subject":{"reference":"Patient/aupc-patient1"},"valueInteger":3},"fullUrl":"http://clinfhir.com/fhir/Observation/aupc-gravidity1"},{"resource":{"resourceType":"Observation","id":"aupc-parity1","status":"final","code":{"coding":[{"system":"http://snomed.info/sct","code":"364325004","display":"Parity"}]},"text":{"status":"additional","div":"<div xmlns=\"http://www.w3.org/1999/xhtml\">Parity</div>"},"subject":{"reference":"Patient/aupc-patient1"},"valueInteger":3},"fullUrl":"http://clinfhir.com/fhir/Observation/aupc-parity1"},{"resource":{"resourceType":"Observation","id":"aupc-gestationOnScan1","status":"final","code":{"coding":[{"system":"http://snomed.info/sct","code":"57036006","display":"Gestation on scan"}]},"text":{"status":"additional","div":"<div xmlns=\"http://www.w3.org/1999/xhtml\">Gestation on scan</div>"},"subject":{"reference":"Patient/aupc-patient1"},"partOf":[{"reference":"Procedure/aupc-procedureUltraSound"}],"valueQuantity":{"value":30,"unit":"weeks","system":"http://unitsofmeasure.org","code":"wk"},"effectiveDateTime":"2020-04-01"},"fullUrl":"http://clinfhir.com/fhir/Observation/aupc-gestationOnScan1"},{"resource":{"resourceType":"Observation","id":"aupc-edd1","status":"final","text":{"status":"additional","div":"<div xmlns=\"http://www.w3.org/1999/xhtml\">Estimated Date of Delivery</div>"},"subject":{"reference":"Patient/aupc-patient1"},"code":{"coding":[{"code":"366322004","system":"http://snomed.info/sct","display":"Finding of estimated date of delivery (finding)"}]},"valueDateTime":"2020-10-01","effectiveDateTime":"2020-04-01"},"fullUrl":"http://clinfhir.com/fhir/Observation/aupc-edd1"},{"resource":{"resourceType":"Observation","id":"aupc-lmp1","status":"final","code":{"coding":[{"system":"http://snomed.info/sct","code":"248993009","display":"Finding of estimated date of delivery (finding)"}]},"text":{"status":"additional","div":"<div xmlns=\"http://www.w3.org/1999/xhtml\">Last Menstrual Period</div>"},"subject":{"reference":"Patient/aupc-patient1"},"valueDateTime":"2019-10-01","effectiveDateTime":"2020-04-01"},"fullUrl":"http://clinfhir.com/fhir/Observation/aupc-lmp1"},{"resource":{"resourceType":"List","id":"aupc-socialHistoryList","status":"current","mode":"snapshot","text":{"status":"additional","div":"<div xmlns=\"http://www.w3.org/1999/xhtml\">Social history resources</div>"},"subject":{"reference":"Patient/aupc-patient1"},"entry":[{"item":{"reference":"Observation/aupc-smoker1"}}]},"fullUrl":"http://clinfhir.com/fhir/List/aupc-socialHistoryList"},{"resource":{"resourceType":"Observation","id":"aupc-smoker1","text":{"status":"additional","div":"<div xmlns=\"http://www.w3.org/1999/xhtml\">Cigarette smoker</div>"},"status":"final","subject":{"reference":"Patient/aupc-patient1"},"effectiveDateTime":"2020-04-01","code":{"coding":[{"code":"65568007","system":"http://snomed.info/sct","display":"Cigarette smoker"}]}},"fullUrl":"http://clinfhir.com/fhir/Observation/aupc-smoker1"},{"resource":{"resourceType":"List","id":"aupc-followUpList","status":"current","mode":"snapshot","text":{"status":"additional","div":"<div xmlns=\"http://www.w3.org/1999/xhtml\">3 allergies</div>"},"subject":{"reference":"Patient/aupc-patient1"},"entry":[{"item":{"reference":"CarePlan/aupc-followup1"}}]},"fullUrl":"http://clinfhir.com/fhir/List/aupc-followUpList"},{"resource":{"resourceType":"CarePlan","id":"aupc-followup1","status":"active","intent":"proposal","title":"Follow up for Blood Pressure check","period":{"start":"2020-05-05"},"subject":{"reference":"Patient/aupc-patient1","display":"John Doe"},"note":[{"text":"Need to use large sized cuff..."}]},"fullUrl":"http://clinfhir.com/fhir/CarePlan/aupc-followup1"}],"identifier":{"system":"http://clinfhir.com/fhir/namingSystem/test","value":"testing"},"timestamp":"2020-07-05T22:39:14.162Z"}