{"resourceType":"Bundle","id":"aupc-maryFictitious","type":"document","entry":[{"resource":{"resourceType":"Composition","id":"aupc-maryFictitious","status":"final","type":{"coding":[{"code":"11503-0","system":"http://loinc.org","display":"Medical Records"}]},"title":"Practice to Practice Patient Summary","text":{"status":"additional","div":"<div xmlns=\"http://www.w3.org/1999/xhtml\">A complete example of an extract</div>"},"identifier":{"system":"http://clinfhir.com/fhir/namingSystem/test","value":"testing"},"author":[{"reference":"Practitioner/aupc-practitioner1","display":"Marcus Welby"}],"subject":{"reference":"Patient/maryFictitious","display":"Mary Fictitious"},"date":"2020-04-21","section":[{"entry":[{"reference":"List/mf-medicalHistoryList"}],"code":{"coding":[{"code":"11348-0","system":"http://loinc.org","display":"Medical History"}]},"text":{"div":"<div xmlns=\"http://www.w3.org/1999/xhtml\">Hypertension, Rheumatoid Arthritis and bipolar disorder</div>Hypertension, Rheumatoid Arthritis and bipolar disorder<li>Hypertension</li><li>Rheumatoid Arthritis</li><li>Bipolar disorder</li><li>UteroVaginal prolapse repair (with mesh)</li>","status":"generated"}},{"code":{"coding":[{"code":"29762-2","system":"http://loinc.org","display":"Social History Narrative"}]},"text":{"div":"<div xmlns=\"http://www.w3.org/1999/xhtml\">Widowed May 2019</div>Widowed May 2019<li>Widowed May 2019r</li>","status":"generated"},"entry":[{"reference":"List/mf-SocialHistoryList"}]},{"entry":[{"reference":"List/aupc-adverseReactionEmpty"}],"code":{"coding":[{"code":"48765-2","system":"http://loinc.org","display":"Adverse Reactions"}]},"text":{"div":"<div xmlns=\"http://www.w3.org/1999/xhtml\">No known allergies</div>No known allergies","status":"generated"}},{"entry":[{"reference":"List/aupc-immunizationEmpty"}],"code":{"coding":[{"code":"41291-6","system":"http://loinc.org","display":"Immunization"}]},"text":{"div":"<div xmlns=\"http://www.w3.org/1999/xhtml\">No known immunizations</div>No known immunizations","status":"generated"}},{"entry":[{"reference":"List/aupc-medicineListEmpty"}],"code":{"coding":[{"code":"10160-0","system":"http://loinc.org","display":"Medication List"}]},"text":{"div":"<div xmlns=\"http://www.w3.org/1999/xhtml\">No known medications</div>No known medications","status":"generated"}}]},"fullUrl":"http://clinfhir.com/fhir/Composition/aupc-maryFictitious"},{"resource":{"resourceType":"Patient","id":"maryFictitious","text":{"status":"additional","div":"<div xmlns=\"http://www.w3.org/1999/xhtml\">Mary Fictitious. Female aged 49</div>"},"name":[{"family":"Fictitious","given":["Mary"],"text":"Mary Fictitious"}],"birthDate":"1971","gender":"female","address":[{"text":"23 Thule st"}]},"fullUrl":"http://clinfhir.com/fhir/Patient/maryFictitious"},{"resource":{"resourceType":"Practitioner","id":"aupc-practitioner1","text":{"status":"additional","div":"<div xmlns=\"http://www.w3.org/1999/xhtml\">Dr Marcus Welby</div>"},"name":[{"text":"Marcus Welby"}]},"fullUrl":"http://clinfhir.com/fhir/Practitioner/aupc-practitioner1"},{"resource":{"resourceType":"List","id":"mf-medicalHistoryList","status":"current","mode":"snapshot","text":{"status":"additional","div":"<div xmlns=\"http://www.w3.org/1999/xhtml\">Hypertension, Rheumatoid Arthritis and bipolar disorder</div>"},"subject":{"reference":"Patient/maryFictitious"},"entry":[{"item":{"reference":"Condition/mf-condition1"}},{"item":{"reference":"Condition/mf-condition2"}},{"item":{"reference":"Condition/mf-condition3"}},{"item":{"reference":"Procedure/mf-procedure1"}}]},"fullUrl":"http://clinfhir.com/fhir/List/mf-medicalHistoryList"},{"resource":{"resourceType":"Condition","id":"mf-condition1","code":{"coding":[{"system":"http://snomed.info/sct","code":"59621000","display":"Essential hypertension (disorder)"}]},"text":{"status":"additional","div":"<div xmlns=\"http://www.w3.org/1999/xhtml\">Hypertension</div>"},"asserter":{"reference":"Practitioner/aupc-practitioner1"},"subject":{"reference":"Patient/maryFictitious"},"clinicalStatus":{"coding":[{"code":"active","system":"http://terminology.hl7.org/CodeSystem/condition-clinical"}]},"verificationStatus":{"coding":[{"code":"confirmed","system":"http://terminology.hl7.org/CodeSystem/condition-ver-status"}]},"category":[{"coding":[{"code":"439401001","system":"http://snomed.info/sct"}]}]},"fullUrl":"http://clinfhir.com/fhir/Condition/mf-condition1"},{"resource":{"resourceType":"Condition","id":"mf-condition2","code":{"coding":[{"system":"http://snomed.info/sct","code":"69896004","display":"Rheumatoid Arthritis (disorder)"}]},"text":{"status":"additional","div":"<div xmlns=\"http://www.w3.org/1999/xhtml\">Rheumatoid Arthritis</div>"},"asserter":{"reference":"Practitioner/aupc-practitioner1"},"subject":{"reference":"Patient/maryFictitious"},"clinicalStatus":{"coding":[{"code":"active","system":"http://terminology.hl7.org/CodeSystem/condition-clinical"}]},"verificationStatus":{"coding":[{"code":"confirmed","system":"http://terminology.hl7.org/CodeSystem/condition-ver-status"}]},"category":[{"coding":[{"code":"439401001","system":"http://snomed.info/sct"}]}]},"fullUrl":"http://clinfhir.com/fhir/Condition/mf-condition2"},{"resource":{"resourceType":"Condition","id":"mf-condition3","code":{"coding":[{"system":"http://snomed.info/sct","code":"13746004","display":"Bipolar disorder (disorder)"}]},"text":{"status":"additional","div":"<div xmlns=\"http://www.w3.org/1999/xhtml\">Bipolar disorder</div>"},"asserter":{"reference":"Practitioner/aupc-practitioner1"},"subject":{"reference":"Patient/maryFictitious"},"clinicalStatus":{"coding":[{"code":"active","system":"http://terminology.hl7.org/CodeSystem/condition-clinical"}]},"verificationStatus":{"coding":[{"code":"confirmed","system":"http://terminology.hl7.org/CodeSystem/condition-ver-status"}]},"category":[{"coding":[{"code":"439401001","system":"http://snomed.info/sct"}]}]},"fullUrl":"http://clinfhir.com/fhir/Condition/mf-condition3"},{"resource":{"resourceType":"Procedure","id":"mf-procedure1","text":{"status":"additional","div":"<div xmlns=\"http://www.w3.org/1999/xhtml\">UteroVaginal prolapse repair (with mesh)</div>"},"status":"completed","subject":{"reference":"Patient/aupc-patient1"},"code":{"coding":[{"code":"238034001","system":"http://snomed.info/sct","display":"Repair of vaginal wall prolapse (procedure)"}]}},"fullUrl":"http://clinfhir.com/fhir/Procedure/mf-procedure1"},{"resource":{"resourceType":"List","id":"mf-SocialHistoryList","status":"current","mode":"snapshot","text":{"status":"additional","div":"<div xmlns=\"http://www.w3.org/1999/xhtml\">Social history resources</div>"},"subject":{"reference":"Patient/maryFictitious"},"entry":[{"item":{"reference":"Observation/mfWidowed"}}]},"fullUrl":"http://clinfhir.com/fhir/List/mf-SocialHistoryList"},{"resource":{"resourceType":"Observation","id":"mfWidowed","text":{"status":"additional","div":"<div xmlns=\"http://www.w3.org/1999/xhtml\">Widowed May 2019r</div>"},"status":"final","subject":{"reference":"Patient/aupc-patient1"},"effectiveDateTime":"2020-04-01","code":{"coding":[{"code":"33553000","system":"http://snomed.info/sct","display":"Widowed"}]}},"fullUrl":"http://clinfhir.com/fhir/Observation/mfWidowed"},{"resource":{"resourceType":"List","id":"aupc-adverseReactionEmpty","status":"current","mode":"snapshot","text":{"status":"additional","div":"<div xmlns=\"http://www.w3.org/1999/xhtml\">No allergies or adverse reactions known</div>"},"emptyReason":{"coding":[{"code":"nilknown","system":"http://terminology.hl7.org/CodeSystem/list-empty-reason","display":"Nil Known"}]}},"fullUrl":"http://clinfhir.com/fhir/List/aupc-adverseReactionEmpty"},{"resource":{"resourceType":"List","id":"aupc-immunizationEmpty","status":"current","mode":"snapshot","text":{"status":"additional","div":"<div xmlns=\"http://www.w3.org/1999/xhtml\">No Immunizations known</div>"},"emptyReason":{"coding":[{"code":"nilknown","system":"http://terminology.hl7.org/CodeSystem/list-empty-reason","display":"Nil Known"}]}},"fullUrl":"http://clinfhir.com/fhir/List/aupc-immunizationEmpty"},{"resource":{"resourceType":"List","id":"aupc-medicineListEmpty","status":"current","mode":"snapshot","text":{"status":"additional","div":"<div xmlns=\"http://www.w3.org/1999/xhtml\">No Medications known</div>"},"emptyReason":{"coding":[{"code":"nilknown","system":"http://terminology.hl7.org/CodeSystem/list-empty-reason","display":"Nil Known"}]}},"fullUrl":"http://clinfhir.com/fhir/List/aupc-medicineListEmpty"}],"identifier":{"system":"http://clinfhir.com/fhir/namingSystem/test","value":"testing"},"timestamp":"2020-06-10T23:23:23.407Z"}