{"resourceType":"Bundle","id":"aupc-maryFictitious","type":"document","entry":[{"resource":{"resourceType":"Composition","id":"aupc-maryFictitious","status":"final","type":{"coding":[{"code":"11503-0","system":"http://loinc.org","display":"Medical Records"}]},"title":"Practice to Practice Patient Summary","text":{"status":"additional","div":"<div xmlns=\"http://www.w3.org/1999/xhtml\">Mary Fictitious example</div>"},"identifier":{"system":"http://clinfhir.com/fhir/namingSystem/test","value":"testing"},"author":[{"reference":"Practitioner/aupc-practitioner1","display":"Marcus Welby"}],"subject":{"reference":"Patient/maryFictitious","display":"Mary Fictitious"},"date":"2020-04-21","section":[{"entry":[{"reference":"List/mf-medicalHistoryList"}],"code":{"coding":[{"code":"11348-0","system":"http://loinc.org","display":"Medical History"}]},"text":{"div":"<div xmlns=\"http://www.w3.org/1999/xhtml\">Hypertension, Rheumatoid Arthritis and bipolar disorder</div>","status":"generated"}},{"code":{"coding":[{"code":"29762-2","system":"http://loinc.org","display":"Social History Narrative"}]},"text":{"div":"<div xmlns=\"http://www.w3.org/1999/xhtml\">Widowed May 2019</div>","status":"generated"},"entry":[{"reference":"List/mf-SocialHistoryList"}]},{"entry":[{"reference":"List/aupc-adverseReactionEmpty"}],"code":{"coding":[{"code":"48765-2","system":"http://loinc.org","display":"Adverse Reactions"}]},"text":{"div":"<div xmlns=\"http://www.w3.org/1999/xhtml\">No known allergies</div>","status":"generated"}},{"entry":[{"reference":"List/aupc-immunizationEmpty"}],"code":{"coding":[{"code":"41291-6","system":"http://loinc.org","display":"Immunization"}]},"text":{"div":"<div xmlns=\"http://www.w3.org/1999/xhtml\">No known immunizations</div>","status":"generated"}},{"code":{"coding":[{"code":"10160-0","system":"http://loinc.org","display":"Medication List"}]},"text":{"div":"<div xmlns=\"http://www.w3.org/1999/xhtml\"><ul><li>Sevikar HCT 40/10/25</li><li>Methotrexate</li><li>lithium carbonate</li><li>Prednisolone during Rheumatoid Arthritis exascerbation</li></ul></div>","status":"generated"},"entry":[{"reference":"List/mf-medicineList"}]},{"entry":[{"reference":"List/mf-familyHistoryList"}],"code":{"coding":[{"code":"11348-0","system":"http://loinc.org","display":"Family History"}]},"text":{"div":"<div xmlns=\"http://www.w3.org/1999/xhtml\">Mother and Sister hypothyroid in 30s</div>","status":"generated"}},{"code":{"coding":[{"code":"89083-0","system":"http://loinc.org","display":"Follow up visit item set"}]},"text":{"div":"<div xmlns=\"http://www.w3.org/1999/xhtml\"><ul><li>Discuss HRT</li><li>Due for screening mammogram age 50</li><li>Due for bowel cancer screening age 50</li><li>CST due in 3 years for now</li><li>Refer for bone mineral densitometry next visit as her use of prednisolone, her rheumatoid arthritis, her alcohol intake and her peri-menopausal status increase her risk of osteoporosis</li></ul></div>","status":"generated"}}]},"fullUrl":"http://clinfhir.com/fhir/Composition/aupc-maryFictitious"},{"resource":{"resourceType":"Patient","id":"maryFictitious","text":{"status":"additional","div":"<div xmlns=\"http://www.w3.org/1999/xhtml\">Mary Fictitious. Female aged 49</div>"},"name":[{"family":"Fictitious","given":["Mary"],"text":"Mary Fictitious"}],"birthDate":"1971","gender":"female","address":[{"text":"23 Thule st"}]},"fullUrl":"http://clinfhir.com/fhir/Patient/maryFictitious"},{"resource":{"resourceType":"Practitioner","id":"aupc-practitioner1","text":{"status":"additional","div":"<div xmlns=\"http://www.w3.org/1999/xhtml\">Dr Marcus Welby</div>"},"name":[{"text":"Marcus Welby"}]},"fullUrl":"http://clinfhir.com/fhir/Practitioner/aupc-practitioner1"},{"resource":{"resourceType":"List","id":"mf-medicalHistoryList","status":"current","mode":"snapshot","text":{"status":"additional","div":"<div xmlns=\"http://www.w3.org/1999/xhtml\">Hypertension, Rheumatoid Arthritis and bipolar disorder</div>"},"subject":{"reference":"Patient/maryFictitious"},"entry":[{"item":{"reference":"Condition/mf-condition1"}},{"item":{"reference":"Condition/mf-condition2"}},{"item":{"reference":"Condition/mf-condition3"}},{"item":{"reference":"Procedure/mf-procedure1"}}]},"fullUrl":"http://clinfhir.com/fhir/List/mf-medicalHistoryList"},{"resource":{"resourceType":"Condition","id":"mf-condition1","code":{"coding":[{"system":"http://snomed.info/sct","code":"59621000","display":"Essential hypertension (disorder)"}]},"text":{"status":"additional","div":"<div xmlns=\"http://www.w3.org/1999/xhtml\">Hypertension</div>"},"asserter":{"reference":"Practitioner/aupc-practitioner1"},"subject":{"reference":"Patient/maryFictitious"},"clinicalStatus":{"coding":[{"code":"active","system":"http://terminology.hl7.org/CodeSystem/condition-clinical"}]},"verificationStatus":{"coding":[{"code":"confirmed","system":"http://terminology.hl7.org/CodeSystem/condition-ver-status"}]},"category":[{"coding":[{"code":"439401001","system":"http://snomed.info/sct"}]}]},"fullUrl":"http://clinfhir.com/fhir/Condition/mf-condition1"},{"resource":{"resourceType":"Condition","id":"mf-condition2","code":{"coding":[{"system":"http://snomed.info/sct","code":"69896004","display":"Rheumatoid Arthritis (disorder)"}]},"text":{"status":"additional","div":"<div xmlns=\"http://www.w3.org/1999/xhtml\">Rheumatoid Arthritis</div>"},"asserter":{"reference":"Practitioner/aupc-practitioner1"},"subject":{"reference":"Patient/maryFictitious"},"clinicalStatus":{"coding":[{"code":"active","system":"http://terminology.hl7.org/CodeSystem/condition-clinical"}]},"verificationStatus":{"coding":[{"code":"confirmed","system":"http://terminology.hl7.org/CodeSystem/condition-ver-status"}]},"category":[{"coding":[{"code":"439401001","system":"http://snomed.info/sct"}]}]},"fullUrl":"http://clinfhir.com/fhir/Condition/mf-condition2"},{"resource":{"resourceType":"Condition","id":"mf-condition3","code":{"coding":[{"system":"http://snomed.info/sct","code":"13746004","display":"Bipolar disorder (disorder)"}]},"text":{"status":"additional","div":"<div xmlns=\"http://www.w3.org/1999/xhtml\">Bipolar disorder</div>"},"asserter":{"reference":"Practitioner/aupc-practitioner1"},"subject":{"reference":"Patient/maryFictitious"},"clinicalStatus":{"coding":[{"code":"active","system":"http://terminology.hl7.org/CodeSystem/condition-clinical"}]},"verificationStatus":{"coding":[{"code":"confirmed","system":"http://terminology.hl7.org/CodeSystem/condition-ver-status"}]},"category":[{"coding":[{"code":"439401001","system":"http://snomed.info/sct"}]}]},"fullUrl":"http://clinfhir.com/fhir/Condition/mf-condition3"},{"resource":{"resourceType":"Procedure","id":"mf-procedure1","text":{"status":"additional","div":"<div xmlns=\"http://www.w3.org/1999/xhtml\">UteroVaginal prolapse repair (with mesh)</div>"},"status":"completed","subject":{"reference":"Patient/maryFictitious"},"code":{"coding":[{"code":"238034001","system":"http://snomed.info/sct","display":"Repair of vaginal wall prolapse (procedure)"}]}},"fullUrl":"http://clinfhir.com/fhir/Procedure/mf-procedure1"},{"resource":{"resourceType":"List","id":"mf-SocialHistoryList","status":"current","mode":"snapshot","text":{"status":"additional","div":"<div xmlns=\"http://www.w3.org/1999/xhtml\">Social history resources</div>"},"subject":{"reference":"Patient/maryFictitious"},"entry":[{"item":{"reference":"Observation/mfWidowed"}},{"item":{"reference":"Observation/mf-exSmoker"}},{"item":{"reference":"Observation/mf-alcohol"}},{"item":{"reference":"Observation/mf-occupation"}}]},"fullUrl":"http://clinfhir.com/fhir/List/mf-SocialHistoryList"},{"resource":{"resourceType":"Observation","id":"mfWidowed","text":{"status":"additional","div":"<div xmlns=\"http://www.w3.org/1999/xhtml\">Widowed May 2019r</div>"},"status":"final","subject":{"reference":"Patient/maryFictitious"},"effectiveDateTime":"2020-04-01","code":{"coding":[{"code":"33553000","system":"http://snomed.info/sct","display":"Widowed"}]}},"fullUrl":"http://clinfhir.com/fhir/Observation/mfWidowed"},{"resource":{"resourceType":"Observation","id":"mf-exSmoker","text":{"status":"additional","div":"<div xmlns=\"http://www.w3.org/1999/xhtml\">Stopped smoking 2015</div>"},"status":"final","subject":{"reference":"Patient/maryFictitious"},"effectivePeriod":{"end":"2015"},"code":{"coding":[{"code":"65568007","system":"http://snomed.info/sct","display":"Cigarette smoker"}]}},"fullUrl":"http://clinfhir.com/fhir/Observation/mf-exSmoker"},{"resource":{"resourceType":"Observation","id":"mf-alcohol","text":{"status":"additional","div":"<div xmlns=\"http://www.w3.org/1999/xhtml\">Alcohol intake 2 std. drinks 5 times a week</div>"},"status":"final","subject":{"reference":"Patient/maryFictitious"},"code":{"coding":[{"code":"365967005","system":"http://snomed.info/sct","display":"Finding of alcohol intake (finding)"}]},"valueString":"Alcohol intake 2 std. drinks 5 times a week"},"fullUrl":"http://clinfhir.com/fhir/Observation/mf-alcohol"},{"resource":{"resourceType":"Observation","id":"mf-occupation","text":{"status":"additional","div":"<div xmlns=\"http://www.w3.org/1999/xhtml\">Works at Centrelink</div>"},"status":"final","subject":{"reference":"Patient/maryFictitious"},"code":{"coding":[{"code":"14679004","system":"http://snomed.info/sct","display":"Occupation (occupation)"}]},"valueString":"Works at Centrelink, able to transfer"},"fullUrl":"http://clinfhir.com/fhir/Observation/mf-occupation"},{"resource":{"resourceType":"List","id":"aupc-adverseReactionEmpty","status":"current","mode":"snapshot","text":{"status":"additional","div":"<div xmlns=\"http://www.w3.org/1999/xhtml\">No allergies or adverse reactions known</div>"},"emptyReason":{"coding":[{"code":"nilknown","system":"http://terminology.hl7.org/CodeSystem/list-empty-reason","display":"Nil Known"}]}},"fullUrl":"http://clinfhir.com/fhir/List/aupc-adverseReactionEmpty"},{"resource":{"resourceType":"List","id":"aupc-immunizationEmpty","status":"current","mode":"snapshot","text":{"status":"additional","div":"<div xmlns=\"http://www.w3.org/1999/xhtml\">No Immunizations known</div>"},"emptyReason":{"coding":[{"code":"nilknown","system":"http://terminology.hl7.org/CodeSystem/list-empty-reason","display":"Nil Known"}]}},"fullUrl":"http://clinfhir.com/fhir/List/aupc-immunizationEmpty"},{"resource":{"resourceType":"List","id":"mf-medicineList","status":"current","mode":"snapshot","text":{"status":"additional","div":"<div xmlns=\"http://www.w3.org/1999/xhtml\"></div>"},"subject":{"reference":"Patient/maryFictitious"},"entry":[{"item":{"reference":"MedicationStatement/mf-medication1"}},{"item":{"reference":"MedicationStatement/mf-medication2"}},{"item":{"reference":"MedicationStatement/mf-medication3"}}]},"fullUrl":"http://clinfhir.com/fhir/List/mf-medicineList"},{"resource":{"resourceType":"MedicationStatement","id":"mf-medication1","text":{"status":"additional","div":"<div xmlns=\"http://www.w3.org/1999/xhtml\">Sevikar HCT 40/10/25</div>"},"subject":{"reference":"Patient/maryFictitious"},"status":"active","medicationCodeableConcept":{"text":"Sevikar HCT 40/10/25"}},"fullUrl":"http://clinfhir.com/fhir/MedicationStatement/mf-medication1"},{"resource":{"resourceType":"MedicationStatement","id":"mf-medication2","text":{"status":"additional","div":"<div xmlns=\"http://www.w3.org/1999/xhtml\">Methotrexate</div>"},"subject":{"reference":"Patient/maryFictitious"},"status":"active","medicationCodeableConcept":{"text":"Methotrexate"}},"fullUrl":"http://clinfhir.com/fhir/MedicationStatement/mf-medication2"},{"resource":{"resourceType":"MedicationStatement","id":"mf-medication3","text":{"status":"additional","div":"<div xmlns=\"http://www.w3.org/1999/xhtml\">lithium carbonate</div>"},"subject":{"reference":"Patient/maryFictitious"},"status":"active","medicationCodeableConcept":{"text":"lithium carbonate"}},"fullUrl":"http://clinfhir.com/fhir/MedicationStatement/mf-medication3"},{"resource":{"resourceType":"List","id":"mf-familyHistoryList","status":"current","mode":"snapshot","text":{"status":"additional","div":"<div xmlns=\"http://www.w3.org/1999/xhtml\">Father with diabetes</div>"},"subject":{"reference":"Patient/maryFictitious"},"entry":[{"item":{"reference":"FamilyMemberHistory/mf-familyHistory1"}},{"item":{"reference":"FamilyMemberHistory/mf-familyHistory2"}}]},"fullUrl":"http://clinfhir.com/fhir/List/mf-familyHistoryList"},{"resource":{"resourceType":"FamilyMemberHistory","id":"mf-familyHistory1","text":{"status":"additional","div":"<div xmlns=\"http://www.w3.org/1999/xhtml\">Mother hypothyroid</div>"},"status":"completed","patient":{"reference":"Patient/maryFictitious"},"name":"Mummy","relationship":{"coding":[{"code":"72705000","system":"http://snomed.info/sct","display":"Mother (person)"}]},"bornDate":"1956","condition":[{"code":{"coding":[{"code":"40930008","system":"http://snomed.info/sct","display":"Hypothyroidism (disorder)"}]},"onsetString":"30 years"}]},"fullUrl":"http://clinfhir.com/fhir/FamilyMemberHistory/mf-familyHistory1"},{"resource":{"resourceType":"FamilyMemberHistory","id":"mf-familyHistory2","text":{"status":"additional","div":"<div xmlns=\"http://www.w3.org/1999/xhtml\">Sister hypothyroid</div>"},"status":"completed","patient":{"reference":"Patient/maryFictitious"},"name":"Sis","relationship":{"coding":[{"code":"27733009","system":"http://snomed.info/sct","display":"Sister (person)"}]},"bornDate":"1956","condition":[{"code":{"coding":[{"code":"40930008","system":"http://snomed.info/sct","display":"Hypothyroidism (disorder)"}]},"onsetString":"30 years"}]},"fullUrl":"http://clinfhir.com/fhir/FamilyMemberHistory/mf-familyHistory2"}],"identifier":{"system":"http://clinfhir.com/fhir/namingSystem/test","value":"testing"},"timestamp":"2020-07-07T05:14:17.708Z"}